File: Datasets/Mendeley/MND_002.txt
#FORMAT      : EMSA/MAS Spectral Data File
#VERSION     : 1.0
#TITLE       : Spectrum 139
#DATE        : 19-APR-2019
#TIME        : 18:59
#OWNER       :
#NPOINTS     : 2048.0
#NCOLUMNS    : 1.0
#XUNITS      : keV
#YUNITS      : counts
#DATATYPE    : XY
#XPERCHAN    : 0.005
#OFFSET      : -0.1
#SIGNALTYPE  : EDS
#CHOFFSET    : 20.0
#LIVETIME    : 60.0264
#REALTIME    : 62.5149
#BEAMKV      : 10.0
#MAGCAM      : 2000.0
#XTILTSTGE   : 0.0
#AZIMANGLE   : 0.0
#ELEVANGLE   : 35.0
#XPOSITION mm: -10.3938
#YPOSITION mm: -9.5002
#ZPOSITION mm: 6.0001
##OXINSTPT   : 4
##OXINSTSTROB: 53.24
##OXINSTELEMS: 6,8,20,38
##OXINSTLABEL: 6, 0.277, C K?1_2
##OXINSTLABEL: 8, 0.525, O K?1
##OXINSTLABEL: 20, 3.692, Ca K?1
##OXINSTLABEL: 20, 4.013, Ca K?1
##OXINSTLABEL: 20, 0.341, Ca L?1,2
##OXINSTLABEL: 20, 0.303, Ca Ll
##OXINSTLABEL: 38, 1.807, Sr L?1
##OXINSTLABEL: 38, 1.649, Sr L?
##OXINSTLABEL: 38, 1.582, Sr Ll
##OXINSTLABEL: 38, 0.114, Sr M?
#SPECTRUM    : Spectral Data Starts Here
-0.10000, 0.0
-0.09000, 0.0
-0.08000, 1.0
-0.07000, 1.0
-0.06000, 8.0
-0.05000, 27.0
-0.04000, 59.0
-0.03000, 156.0
-0.02000, 274.0
-0.01000, 477.0
0.00000, 638.0
0.01000, 894.0
0.02000, 1019.0
0.03000, 1330.0
0.04000, 1437.0
0.05000, 1514.0
0.06000, 1270.0
0.07000, 951.0
0.08000, 545.0
0.09000, 244.0
0.10000, 91.0
0.11000, 43.0
0.12000, 25.0
0.13000, 16.0
0.14000, 17.0
0.15000, 24.0
0.16000, 16.0
0.17000, 15.0
0.18000, 26.0
0.19000, 35.0
0.20000, 41.0
0.21000, 49.0
0.22000, 83.0
0.23000, 151.0
0.24000, 233.0
0.25000, 329.0
0.26000, 370.0
0.27000, 418.0
0.28000, 424.0
0.29000, 339.0
0.30000, 231.0
0.31000, 161.0
0.32000, 81.0
0.33000, 43.0
0.34000, 29.0
0.35000, 13.0
0.36000, 13.0
0.37000, 7.0
0.38000, 12.0
0.39000, 12.0
0.40000, 14.0
0.41000, 18.0
0.42000, 12.0
0.43000, 13.0
0.44000, 12.0
0.45000, 17.0
0.46000, 22.0
0.47000, 31.0
0.48000, 53.0
0.49000, 69.0
0.50000, 90.0
0.51000, 107.0
0.52000, 115.0
0.53000, 111.0
0.54000, 101.0
0.55000, 78.0
0.56000, 54.0
0.57000, 36.0
0.58000, 22.0
0.59000, 20.0
0.60000, 11.0
0.61000, 11.0
0.62000, 11.0
0.63000, 13.0
0.64000, 11.0
0.65000, 10.0
0.66000, 14.0
0.67000, 15.0
0.68000, 15.0
0.69000, 17.0
0.70000, 13.0
0.71000, 11.0
0.72000, 14.0
0.73000, 15.0
0.74000, 20.0
0.75000, 14.0
0.76000, 9.0
0.77000, 11.0
0.78000, 15.0
0.79000, 12.0
0.80000, 13.0
0.81000, 11.0
0.82000, 12.0
0.83000, 13.0
0.84000, 11.0
0.85000, 11.0
0.86000, 14.0
0.87000, 16.0
0.88000, 19.0
0.89000, 18.0
0.90000, 12.0
0.91000, 17.0
0.92000, 18.0
0.93000, 14.0
0.94000, 17.0
0.95000, 13.0
0.96000, 14.0
0.97000, 15.0
0.98000, 22.0
0.99000, 21.0
1.00000, 20.0
1.01000, 22.0
1.02000, 22.0
1.03000, 16.0
1.04000, 19.0
1.05000, 26.0
1.06000, 30.0
1.07000, 27.0
1.08000, 23.0
1.09000, 23.0
1.10000, 26.0
1.11000, 25.0
1.12000, 31.0
1.13000, 21.0
1.14000, 27.0
1.15000, 23.0
1.16000, 26.0
1.17000, 30.0
1.18000, 25.0
1.19000, 22.0
1.20000, 32.0
1.21000, 31.0
1.22000, 30.0
1.23000, 32.0
1.24000, 34.0
1.25000, 36.0
1.26000, 37.0
1.27000, 36.0
1.28000, 41.0
1.29000, 35.0
1.30000, 39.0
1.31000, 38.0
1.32000, 43.0
1.33000, 34.0
1.34000, 35.0
1.35000, 41.0
1.36000, 33.0
1.37000, 38.0
1.38000, 42.0
1.39000, 42.0
1.40000, 43.0
1.41000, 48.0
1.42000, 56.0
1.43000, 47.0
1.44000, 46.0
1.45000, 41.0
1.46000, 44.0
1.47000, 47.0
1.48000, 46.0
1.49000, 47.0
1.50000, 51.0
1.51000, 50.0
1.52000, 64.0
1.53000, 54.0
1.54000, 64.0
1.55000, 60.0
1.56000, 68.0
1.57000, 66.0
1.58000, 68.0
1.59000, 71.0
1.60000, 72.0
1.61000, 69.0
1.62000, 67.0
1.63000, 71.0
1.64000, 71.0
1.65000, 65.0
1.66000, 64.0
1.67000, 61.0
1.68000, 62.0
1.69000, 63.0
1.70000, 59.0
1.71000, 65.0
1.72000, 70.0
1.73000, 74.0
1.74000, 83.0
1.75000, 108.0
1.76000, 116.0
1.77000, 109.0
1.78000, 154.0
1.79000, 150.0
1.80000, 178.0
1.81000, 172.0
1.82000, 200.0
1.83000, 184.0
1.84000, 192.0
1.85000, 159.0
1.86000, 160.0
1.87000, 137.0
1.88000, 135.0
1.89000, 115.0
1.90000, 124.0
1.91000, 107.0
1.92000, 112.0
1.93000, 114.0
1.94000, 106.0
1.95000, 88.0
1.96000, 94.0
1.97000, 108.0
1.98000, 121.0
1.99000, 143.0
2.00000, 163.0
2.01000, 210.0
2.02000, 233.0
2.03000, 283.0
2.04000, 322.0
2.05000, 314.0
2.06000, 345.0
2.07000, 330.0
2.08000, 342.0
2.09000, 298.0
2.10000, 304.0
2.11000, 259.0
2.12000, 276.0
2.13000, 251.0
2.14000, 225.0
2.15000, 197.0
2.16000, 172.0
2.17000, 155.0
2.18000, 125.0
2.19000, 98.0
2.20000, 98.0
2.21000, 72.0
2.22000, 63.0
2.23000, 71.0
2.24000, 58.0
2.25000, 56.0
2.26000, 61.0
2.27000, 60.0
2.28000, 57.0
2.29000, 61.0
2.30000, 63.0
2.31000, 59.0
2.32000, 64.0
2.33000, 70.0
2.34000, 69.0
2.35000, 74.0
2.36000, 58.0
2.37000, 61.0
2.38000, 58.0
2.39000, 58.0
2.40000, 66.0
2.41000, 56.0
2.42000, 49.0
2.43000, 55.0
2.44000, 60.0
2.45000, 53.0
2.46000, 55.0
2.47000, 55.0
2.48000, 55.0
2.49000, 54.0
2.50000, 52.0
2.51000, 54.0
2.52000, 48.0
2.53000, 55.0
2.54000, 49.0
2.55000, 52.0
2.56000, 58.0
2.57000, 55.0
2.58000, 50.0
2.59000, 61.0
2.60000, 52.0
2.61000, 55.0
2.62000, 63.0
2.63000, 56.0
2.64000, 57.0
2.65000, 53.0
2.66000, 63.0
2.67000, 56.0
2.68000, 60.0
2.69000, 47.0
2.70000, 49.0
2.71000, 55.0
2.72000, 58.0
2.73000, 57.0
2.74000, 54.0
2.75000, 55.0
2.76000, 72.0
2.77000, 65.0
2.78000, 75.0
2.79000, 89.0
2.80000, 93.0
2.81000, 106.0
2.82000, 113.0
2.83000, 124.0
2.84000, 117.0
2.85000, 118.0
2.86000, 118.0
2.87000, 109.0
2.88000, 97.0
2.89000, 90.0
2.90000, 75.0
2.91000, 78.0
2.92000, 77.0
2.93000, 84.0
2.94000, 69.0
2.95000, 73.0
2.96000, 66.0
2.97000, 70.0
2.98000, 80.0
2.99000, 75.0
3.00000, 70.0
3.01000, 77.0
3.02000, 79.0
3.03000, 80.0
3.04000, 71.0
3.05000, 69.0
3.06000, 65.0
3.07000, 55.0
3.08000, 51.0
3.09000, 56.0
3.10000, 58.0
3.11000, 54.0
3.12000, 66.0
3.13000, 50.0
3.14000, 54.0
3.15000, 55.0
3.16000, 52.0
3.17000, 50.0
3.18000, 52.0
3.19000, 50.0
3.20000, 50.0
3.21000, 45.0
3.22000, 53.0
3.23000, 43.0
3.24000, 45.0
3.25000, 47.0
3.26000, 57.0
3.27000, 48.0
3.28000, 47.0
3.29000, 47.0
3.30000, 43.0
3.31000, 43.0
3.32000, 49.0
3.33000, 54.0
3.34000, 39.0
3.35000, 45.0
3.36000, 48.0
3.37000, 55.0
3.38000, 51.0
3.39000, 32.0
3.40000, 47.0
3.41000, 50.0
3.42000, 42.0
3.43000, 41.0
3.44000, 49.0
3.45000, 42.0
3.46000, 44.0
3.47000, 35.0
3.48000, 45.0
3.49000, 51.0
3.50000, 51.0
3.51000, 40.0
3.52000, 49.0
3.53000, 47.0
3.54000, 71.0
3.55000, 68.0
3.56000, 70.0
3.57000, 84.0
3.58000, 123.0
3.59000, 153.0
3.60000, 189.0
3.61000, 286.0
3.62000, 374.0
3.63000, 488.0
3.64000, 672.0
3.65000, 836.0
3.66000, 987.0
3.67000, 1150.0
3.68000, 1295.0
3.69000, 1374.0
3.70000, 1340.0
3.71000, 1299.0
3.72000, 1187.0
3.73000, 1006.0
3.74000, 827.0
3.75000, 666.0
3.76000, 554.0
3.77000, 390.0
3.78000, 282.0
3.79000, 197.0
3.80000, 148.0
3.81000, 97.0
3.82000, 83.0
3.83000, 60.0
3.84000, 51.0
3.85000, 51.0
3.86000, 56.0
3.87000, 48.0
3.88000, 45.0
3.89000, 47.0
3.90000, 42.0
3.91000, 56.0
3.92000, 61.0
3.93000, 59.0
3.94000, 96.0
3.95000, 105.0
3.96000, 109.0
3.97000, 138.0
3.98000, 154.0
3.99000, 171.0
4.00000, 195.0
4.01000, 201.0
4.02000, 212.0
4.03000, 201.0
4.04000, 186.0
4.05000, 161.0
4.06000, 132.0
4.07000, 113.0
4.08000, 81.0
4.09000, 77.0
4.10000, 55.0
4.11000, 49.0
4.12000, 45.0
4.13000, 35.0
4.14000, 36.0
4.15000, 33.0
4.16000, 24.0
4.17000, 25.0
4.18000, 31.0
4.19000, 25.0
4.20000, 29.0
4.21000, 27.0
4.22000, 27.0
4.23000, 21.0
4.24000, 22.0
4.25000, 21.0
4.26000, 23.0
4.27000, 29.0
4.28000, 25.0
4.29000, 21.0
4.30000, 27.0
4.31000, 31.0
4.32000, 33.0
4.33000, 29.0
4.34000, 26.0
4.35000, 28.0
4.36000, 22.0
4.37000, 30.0
4.38000, 32.0
4.39000, 29.0
4.40000, 22.0
4.41000, 32.0
4.42000, 24.0
4.43000, 26.0
4.44000, 25.0
4.45000, 22.0
4.46000, 28.0
4.47000, 32.0
4.48000, 23.0
4.49000, 19.0
4.50000, 24.0
4.51000, 27.0
4.52000, 26.0
4.53000, 27.0
4.54000, 32.0
4.55000, 24.0
4.56000, 23.0
4.57000, 25.0
4.58000, 23.0
4.59000, 22.0
4.60000, 28.0
4.61000, 22.0
4.62000, 24.0
4.63000, 28.0
4.64000, 30.0
4.65000, 25.0
4.66000, 32.0
4.67000, 26.0
4.68000, 24.0
4.69000, 22.0
4.70000, 17.0
4.71000, 28.0
4.72000, 25.0
4.73000, 24.0
4.74000, 26.0
4.75000, 23.0
4.76000, 27.0
4.77000, 26.0
4.78000, 24.0
4.79000, 28.0
4.80000, 21.0
4.81000, 25.0
4.82000, 23.0
4.83000, 20.0
4.84000, 24.0
4.85000, 20.0
4.86000, 24.0
4.87000, 21.0
4.88000, 27.0
4.89000, 20.0
4.90000, 23.0
4.91000, 24.0
4.92000, 24.0
4.93000, 27.0
4.94000, 23.0
4.95000, 22.0
4.96000, 24.0
4.97000, 16.0
4.98000, 22.0
4.99000, 28.0
5.00000, 25.0
5.01000, 21.0
5.02000, 22.0
5.03000, 20.0
5.04000, 26.0
5.05000, 18.0
5.06000, 26.0
5.07000, 30.0
5.08000, 16.0
5.09000, 26.0
5.10000, 22.0
5.11000, 27.0
5.12000, 17.0
5.13000, 21.0
5.14000, 24.0
5.15000, 19.0
5.16000, 23.0
5.17000, 26.0
5.18000, 29.0
5.19000, 25.0
5.20000, 22.0
5.21000, 16.0
5.22000, 23.0
5.23000, 18.0
5.24000, 25.0
5.25000, 26.0
5.26000, 22.0
5.27000, 22.0
5.28000, 26.0
5.29000, 23.0
5.30000, 16.0
5.31000, 17.0
5.32000, 21.0
5.33000, 19.0
5.34000, 21.0
5.35000, 21.0
5.36000, 21.0
5.37000, 24.0
5.38000, 20.0
5.39000, 21.0
5.40000, 22.0
5.41000, 20.0
5.42000, 21.0
5.43000, 20.0
5.44000, 20.0
5.45000, 23.0
5.46000, 21.0
5.47000, 22.0
5.48000, 26.0
5.49000, 22.0
5.50000, 18.0
5.51000, 22.0
5.52000, 21.0
5.53000, 19.0
5.54000, 26.0
5.55000, 23.0
5.56000, 20.0
5.57000, 21.0
5.58000, 19.0
5.59000, 20.0
5.60000, 19.0
5.61000, 17.0
5.62000, 17.0
5.63000, 19.0
5.64000, 21.0
5.65000, 17.0
5.66000, 15.0
5.67000, 25.0
5.68000, 25.0
5.69000, 25.0
5.70000, 21.0
5.71000, 22.0
5.72000, 17.0
5.73000, 17.0
5.74000, 26.0
5.75000, 23.0
5.76000, 21.0
5.77000, 18.0
5.78000, 20.0
5.79000, 20.0
5.80000, 21.0
5.81000, 24.0
5.82000, 19.0
5.83000, 19.0
5.84000, 24.0
5.85000, 20.0
5.86000, 16.0
5.87000, 22.0
5.88000, 16.0
5.89000, 21.0
5.90000, 22.0
5.91000, 21.0
5.92000, 20.0
5.93000, 19.0
5.94000, 25.0
5.95000, 18.0
5.96000, 16.0
5.97000, 21.0
5.98000, 20.0
5.99000, 23.0
6.00000, 15.0
6.01000, 23.0
6.02000, 21.0
6.03000, 21.0
6.04000, 21.0
6.05000, 20.0
6.06000, 16.0
6.07000, 20.0
6.08000, 18.0
6.09000, 19.0
6.10000, 16.0
6.11000, 12.0
6.12000, 18.0
6.13000, 18.0
6.14000, 13.0
6.15000, 22.0
6.16000, 16.0
6.17000, 18.0
6.18000, 20.0
6.19000, 17.0
6.20000, 16.0
6.21000, 14.0
6.22000, 22.0
6.23000, 23.0
6.24000, 21.0
6.25000, 15.0
6.26000, 16.0
6.27000, 22.0
6.28000, 13.0
6.29000, 16.0
6.30000, 16.0
6.31000, 15.0
6.32000, 19.0
6.33000, 16.0
6.34000, 16.0
6.35000, 17.0
6.36000, 11.0
6.37000, 17.0
6.38000, 24.0
6.39000, 13.0
6.40000, 19.0
6.41000, 14.0
6.42000, 20.0
6.43000, 16.0
6.44000, 19.0
6.45000, 10.0
6.46000, 12.0
6.47000, 13.0
6.48000, 19.0
6.49000, 13.0
6.50000, 13.0
6.51000, 16.0
6.52000, 17.0
6.53000, 18.0
6.54000, 15.0
6.55000, 19.0
6.56000, 24.0
6.57000, 16.0
6.58000, 13.0
6.59000, 16.0
6.60000, 11.0
6.61000, 14.0
6.62000, 19.0
6.63000, 13.0
6.64000, 12.0
6.65000, 17.0
6.66000, 13.0
6.67000, 14.0
6.68000, 16.0
6.69000, 16.0
6.70000, 16.0
6.71000, 16.0
6.72000, 15.0
6.73000, 14.0
6.74000, 15.0
6.75000, 14.0
6.76000, 12.0
6.77000, 13.0
6.78000, 15.0
6.79000, 17.0
6.80000, 19.0
6.81000, 13.0
6.82000, 18.0
6.83000, 12.0
6.84000, 13.0
6.85000, 16.0
6.86000, 14.0
6.87000, 12.0
6.88000, 11.0
6.89000, 13.0
6.90000, 13.0
6.91000, 11.0
6.92000, 10.0
6.93000, 12.0
6.94000, 12.0
6.95000, 12.0
6.96000, 10.0
6.97000, 14.0
6.98000, 24.0
6.99000, 10.0
7.00000, 13.0
7.01000, 14.0
7.02000, 14.0
7.03000, 13.0
7.04000, 19.0
7.05000, 10.0
7.06000, 16.0
7.07000, 13.0
7.08000, 12.0
7.09000, 17.0
7.10000, 12.0
7.11000, 8.0
7.12000, 12.0
7.13000, 13.0
7.14000, 10.0
7.15000, 10.0
7.16000, 11.0
7.17000, 9.0
7.18000, 11.0
7.19000, 16.0
7.20000, 15.0
7.21000, 13.0
7.22000, 10.0
7.23000, 10.0
7.24000, 12.0
7.25000, 15.0
7.26000, 13.0
7.27000, 14.0
7.28000, 12.0
7.29000, 13.0
7.30000, 12.0
7.31000, 11.0
7.32000, 9.0
7.33000, 11.0
7.34000, 15.0
7.35000, 12.0
7.36000, 11.0
7.37000, 8.0
7.38000, 10.0
7.39000, 15.0
7.40000, 10.0
7.41000, 12.0
7.42000, 11.0
7.43000, 12.0
7.44000, 15.0
7.45000, 12.0
7.46000, 8.0
7.47000, 12.0
7.48000, 11.0
7.49000, 18.0
7.50000, 7.0
7.51000, 10.0
7.52000, 10.0
7.53000, 13.0
7.54000, 8.0
7.55000, 11.0
7.56000, 15.0
7.57000, 9.0
7.58000, 9.0
7.59000, 9.0
7.60000, 12.0
7.61000, 8.0
7.62000, 8.0
7.63000, 11.0
7.64000, 7.0
7.65000, 11.0
7.66000, 14.0
7.67000, 10.0
7.68000, 11.0
7.69000, 13.0
7.70000, 15.0
7.71000, 11.0
7.72000, 10.0
7.73000, 13.0
7.74000, 14.0
7.75000, 6.0
7.76000, 6.0
7.77000, 15.0
7.78000, 15.0
7.79000, 10.0
7.80000, 8.0
7.81000, 10.0
7.82000, 13.0
7.83000, 10.0
7.84000, 6.0
7.85000, 11.0
7.86000, 7.0
7.87000, 10.0
7.88000, 10.0
7.89000, 10.0
7.90000, 9.0
7.91000, 6.0
7.92000, 11.0
7.93000, 9.0
7.94000, 11.0
7.95000, 13.0
7.96000, 10.0
7.97000, 6.0
7.98000, 7.0
7.99000, 9.0
8.00000, 7.0
8.01000, 8.0
8.02000, 7.0
8.03000, 9.0
8.04000, 9.0
8.05000, 9.0
8.06000, 13.0
8.07000, 14.0
8.08000, 12.0
8.09000, 6.0
8.10000, 6.0
8.11000, 9.0
8.12000, 9.0
8.13000, 6.0
8.14000, 10.0
8.15000, 9.0
8.16000, 11.0
8.17000, 6.0
8.18000, 7.0
8.19000, 8.0
8.20000, 9.0
8.21000, 6.0
8.22000, 14.0
8.23000, 6.0
8.24000, 6.0
8.25000, 6.0
8.26000, 12.0
8.27000, 7.0
8.28000, 12.0
8.29000, 8.0
8.30000, 8.0
8.31000, 7.0
8.32000, 7.0
8.33000, 15.0
8.34000, 12.0
8.35000, 11.0
8.36000, 8.0
8.37000, 8.0
8.38000, 7.0
8.39000, 7.0
8.40000, 4.0
8.41000, 6.0
8.42000, 6.0
8.43000, 9.0
8.44000, 8.0
8.45000, 10.0
8.46000, 9.0
8.47000, 11.0
8.48000, 8.0
8.49000, 5.0
8.50000, 7.0
8.51000, 9.0
8.52000, 8.0
8.53000, 7.0
8.54000, 9.0
8.55000, 6.0
8.56000, 6.0
8.57000, 9.0
8.58000, 5.0
8.59000, 5.0
8.60000, 7.0
8.61000, 5.0
8.62000, 7.0
8.63000, 8.0
8.64000, 8.0
8.65000, 5.0
8.66000, 8.0
8.67000, 8.0
8.68000, 8.0
8.69000, 4.0
8.70000, 7.0
8.71000, 2.0
8.72000, 7.0
8.73000, 6.0
8.74000, 8.0
8.75000, 9.0
8.76000, 4.0
8.77000, 11.0
8.78000, 6.0
8.79000, 3.0
8.80000, 5.0
8.81000, 5.0
8.82000, 6.0
8.83000, 6.0
8.84000, 6.0
8.85000, 9.0
8.86000, 5.0
8.87000, 6.0
8.88000, 9.0
8.89000, 6.0
8.90000, 5.0
8.91000, 5.0
8.92000, 11.0
8.93000, 5.0
8.94000, 5.0
8.95000, 6.0
8.96000, 3.0
8.97000, 8.0
8.98000, 4.0
8.99000, 4.0
9.00000, 6.0
9.01000, 5.0
9.02000, 3.0
9.03000, 7.0
9.04000, 6.0
9.05000, 7.0
9.06000, 9.0
9.07000, 6.0
9.08000, 5.0
9.09000, 6.0
9.10000, 3.0
9.11000, 5.0
9.12000, 6.0
9.13000, 2.0
9.14000, 4.0
9.15000, 5.0
9.16000, 6.0
9.17000, 4.0
9.18000, 3.0
9.19000, 3.0
9.20000, 4.0
9.21000, 4.0
9.22000, 5.0
9.23000, 6.0
9.24000, 1.0
9.25000, 4.0
9.26000, 7.0
9.27000, 5.0
9.28000, 4.0
9.29000, 5.0
9.30000, 7.0
9.31000, 6.0
9.32000, 4.0
9.33000, 3.0
9.34000, 4.0
9.35000, 5.0
9.36000, 2.0
9.37000, 5.0
9.38000, 6.0
9.39000, 2.0
9.40000, 5.0
9.41000, 3.0
9.42000, 5.0
9.43000, 2.0
9.44000, 6.0
9.45000, 3.0
9.46000, 3.0
9.47000, 3.0
9.48000, 3.0
9.49000, 3.0
9.50000, 2.0
9.51000, 4.0
9.52000, 4.0
9.53000, 2.0
9.54000, 7.0
9.55000, 5.0
9.56000, 4.0
9.57000, 3.0
9.58000, 2.0
9.59000, 2.0
9.60000, 1.0
9.61000, 3.0
9.62000, 4.0
9.63000, 4.0
9.64000, 3.0
9.65000, 2.0
9.66000, 4.0
9.67000, 3.0
9.68000, 5.0
9.69000, 2.0
9.70000, 3.0
9.71000, 1.0
9.72000, 3.0
9.73000, 2.0
9.74000, 7.0
9.75000, 2.0
9.76000, 2.0
9.77000, 2.0
9.78000, 2.0
9.79000, 1.0
9.80000, 1.0
9.81000, 2.0
9.82000, 2.0
9.83000, 1.0
9.84000, 0.0
9.85000, 1.0
9.86000, 0.0
9.87000, 2.0
9.88000, 1.0
9.89000, 1.0
9.90000, 0.0
9.91000, 0.0
9.92000, 0.0
9.93000, 0.0
9.94000, 1.0
9.95000, 0.0
9.96000, 0.0
9.97000, 0.0
9.98000, 0.0
9.99000, 0.0
10.00000, 0.0
10.01000, 0.0
10.02000, 0.0
10.03000, 0.0
10.04000, 0.0
10.05000, 0.0
10.06000, 0.0
10.07000, 0.0
10.08000, 0.0
10.09000, 0.0
10.10000, 0.0
10.11000, 0.0
10.12000, 0.0
10.13000, 0.0
10.13500, 0.0
#ENDOFDATA   :